Folder: Materials-Characterization-Laboratory-Course/Part 6 Raman Spectroscopy/Raman data

File: diamond_data.txt
#Wave		#Intensity
2381.98	11508.1
2375.26	11433.3
2368.54	11443.5
2361.81	11355.8
2355.08	11359.2
2348.34	11328.9
2341.6	11163
2334.85	11220.5
2328.1	10962.1
2321.34	11062.3
2314.58	10985.9
2307.81	10934
2301.03	10885.2
2294.25	10756.1
2287.47	10693.8
2280.68	10667.2
2273.88	10618.7
2267.08	10528.7
2260.27	10496.9
2253.46	10422.2
2246.64	10432.8
2239.82	10359.7
2232.99	10303.3
2226.16	10240.9
2219.32	10118.5
2212.47	9965.57
2205.62	10092.6
2198.76	9966.13
2191.9	9938.68
2185.04	9995.82
2178.16	9816.57
2171.29	9800.47
2164.4	9718.68
2157.51	9663.87
2150.62	9608.39
2143.72	9516.49
2136.81	9483.51
2129.9	9455.78
2122.98	9451.11
2116.06	9254.91
2109.13	9383.91
2102.2	9411.88
2095.26	9374.63
2088.31	9241.97
2081.37	9269.21
2074.41	9176.72
2067.45	9155.23
2060.48	9161.79
2053.51	9053.37
2046.53	9056.29
2039.54	9045.96
2032.55	9009.16
2025.55	8987.84
2018.55	8911.5
2011.54	8921.8
2004.53	8904.97
1997.51	8860.32
1990.49	8752.1
1983.46	8803.39
1976.42	8797.61
1969.38	8742.94
1962.33	8672.31
1955.28	8722.72
1948.22	8692.96
1941.15	8650.87
1934.08	8544.89
1927	8563.97
1919.92	8600.42
1912.83	8546.91
1905.74	8477.54
1898.64	8475.57
1891.53	8504.7
1884.42	8426.83
1877.3	8317.32
1870.17	8342.86
1863.04	8207.63
1855.91	8303.78
1848.77	8273.84
1841.62	8246.81
1834.46	8176
1827.3	8235.2
1820.14	8112.87
1812.97	8114.68
1805.79	8076.39
1798.6	8055.33
1791.41	8100.75
1784.22	8105.39
1777.02	8034.37
1769.81	7944.21
1762.59	7956.77
1755.37	7891.01
1748.15	7818.24
1740.91	7711.48
1733.68	7756.1
1726.43	7846.74
1719.18	7634.59
1711.92	7747.11
1704.66	7711.56
1697.39	7838.66
1690.12	7792.48
1682.83	7833.88
1675.55	7758.85
1668.25	7791.03
1660.95	7766.82
1653.65	7749.69
1646.33	7635.59
1639.02	7540.63
1631.69	7534.23
1624.36	7515.9
1617.02	7499
1609.68	7512.92
1602.33	7431.7
1594.97	7391.84
1587.61	7329
1580.24	7317.17
1572.87	7401.5
1565.49	7327.65
1558.1	7495.99
1550.71	7950.38
1543.3	8351.9
1535.9	8677.79
1528.49	8824.95
1521.07	8669.16
1513.64	8462.42
1506.21	8179.95
1498.77	7795.03
1491.33	7457
1483.88	7196.1
1476.42	7011.44
1468.95	6977.18
1461.48	6859.04
1454.01	6852.45
1446.52	6798.47
1439.03	6602.55
1431.54	6473.46
1424.03	6456.92
1416.53	6517.04
1409.01	6663.88
1401.49	6796.12
1393.96	6853.72
1386.42	6839.6
1378.88	6927.71
1371.33	7078.29
1363.78	7193.23
1356.22	7506.42
1348.65	9219.21
1341.07	39382.2
1333.49	91236.9
1325.91	39050.3
1318.31	9152.7
1310.71	7328.77
1303.1	6767.13
1295.49	6441.33
1287.87	6022.36
1280.24	5914.03
1272.61	5781.65
1264.96	5646.8
1257.32	5479.25
1249.66	5438.21
1242	5363.69
1234.34	5300.03
1226.66	5267.94
1218.98	5194.41
1211.29	5114.33
1203.6	5160.61
1195.9	5150.08
1188.19	5102.23
1180.47	4985.84
1172.75	5007.42
1165.02	4945.84
1157.29	4983.35
1149.55	4865.46
1141.8	4837.97
1134.04	4757.52
1126.28	4667.93
1118.51	4663.15
1110.73	4660.37
1102.95	4630.51
1095.16	4596.74
1087.37	4501.73
1079.56	4492.48
1071.75	4477.33
1063.93	4460.89
1056.11	4474.02
1048.28	4345.38
1040.44	4336.29
1032.6	4331.14
1024.74	4299.82
1016.88	4218.85
1009.02	4215.77
1001.15	4131.74
993.266	4143.73
985.379	4111.38
977.484	4086.25
969.584	4042.29
961.676	4047.15
953.762	3979.92
945.84	3939.41
937.91	3885.35
929.973	3905.2
922.031	3904.95
914.08	3891.13
906.123	3861.83
898.158	3809.35
890.186	3787.26
882.207	3756.18
874.221	3711
866.229	3749.47
858.229	3685.1
850.221	3669.61
842.207	3630.42
834.186	3611.15
826.156	3588.07
818.119	3634.74
810.076	3526.7
802.025	3512.05
793.969	3535.68
785.902	3470.07
777.83	3515.33
769.752	3364.61
761.664	3392.73
753.57	3368.72
745.469	3294.65
737.359	3323.37
729.244	3263.39
721.121	3228.19
712.99	3203.79
704.852	3222.37
696.707	3194.23
688.555	3112.56
680.395	3160.76
672.227	3083.66
664.053	3082.13
655.869	3032.87
647.68	3000
639.484	3030.52
631.279	2997.08
623.066	2936.17
614.848	2911
606.621	2905.86
598.387	2894.49
590.145	2899.97
581.896	2847.5
573.639	2826.87
565.375	2754.03
557.104	2759.61
548.824	2791.23
540.537	2722.96
532.242	2683.31
523.941	2653.01
515.631	2582.57
507.314	2578.98
498.99	2522.92
490.658	2608.81
482.318	2563.92
473.971	2486.47
465.615	2532.79
457.252	2463.49
448.883	2436.07
440.504	2405.63
432.119	2401.59
423.725	2336.33
415.324	2376.39
406.916	2347.94
398.498	2312.81
390.074	2289.34
381.643	2223.25
373.203	2246.17
364.756	2219.17
356.299	2136.3
347.836	2219.95
339.365	2113.56
330.887	2146.77
322.4	2090.3
313.906	2034.53
305.404	2019.96
296.895	2012.06
288.377	1941.43
279.852	1974.59
271.316	1934.83
262.775	1907.17
254.227	1906.61
245.67	1861.61
237.104	1832.29
228.531	1831.79
219.949	1774.4
211.361	1733.87
202.764	1733.46
194.158	1697.21
185.547	1678.93
176.926	1677.37
168.297	1647.83
159.658	1634.99
151.014	1637.63
142.361	1626.61
133.699	1577.63
125.031	1560.15
116.354	1429.01
107.668	1131.25
98.9746	539.09

File: Microcellulose.txt
#Wave		#Intensity
4001.69	4819.37
3992.57	4187.65
3983.42	4147.33
3974.26	4535.8
3965.08	4788.32
3955.87	4147.2
3946.64	3979.21
3937.4	4419.97
3928.13	4603.86
3918.84	4098.7
3909.53	3857.77
3900.2	4014.08
3890.84	4460.62
3881.47	4077.99
3872.08	3803.65
3862.66	4043.06
3853.22	4088.23
3843.76	3935.06
3834.28	3755.47
3824.77	3911.66
3815.25	3999.73
3805.7	3880.3
3796.13	3565.54
3786.54	3851.78
3776.93	3773.48
3767.29	3413.09
3757.63	3134.08
3747.95	3041.98
3738.25	2881.49
3728.52	2032.7
3718.78	1272.11
3709.01	814.576
3699.21	707.824
3689.4	831.724
3679.56	1448.22
3669.7	1483.9
3659.81	875.282
3649.9	725.543
3639.97	928.079
3630.02	1191.56
3620.04	1047.26
3610.04	764.993
3600.02	870.767
3589.97	1108.9
3579.9	1085.91
3569.8	857.021
3559.68	913.359
3549.54	1255.44
3539.38	1111.08
3529.18	977.455
3518.97	1065.62
3508.73	1253.66
3498.47	1073.1
3488.18	1135.44
3477.87	1277.14
3467.53	1467.83
3457.17	1300.81
3446.78	1312.55
3436.37	1533.83
3425.94	1503.11
3415.48	1425.9
3404.99	1574.3
3394.48	1565.65
3383.94	1500.98
3373.38	1560.59
3362.8	1675.67
3352.18	1657.14
3341.55	1670.05
3330.88	1769.55
3320.2	1755.69
3309.48	1808.96
3298.74	1897.81
3287.97	2017.22
3277.18	1990.93
3266.36	2012.21
3255.52	2033.38
3244.64	2127.62
3233.75	2030.58
3222.82	2067.95
3211.87	2116.83
3200.89	2057.89
3189.89	1966.56
3178.86	1410.23
3167.8	663.928
3156.71	544.201
3145.6	579.829
3134.46	589.93
3123.29	609.171
3112.1	612.261
3100.88	601.605
3089.62	638.915
3078.35	687.417
3067.04	735.674
3055.71	745.181
3044.34	723.004
3032.95	806.859
3021.54	809.355
3010.09	948.633
2998.61	993.255
2987.11	1280.88
2975.58	1591.55
2964.01	1942.85
2952.42	2212.65
2940.8	2498.75
2929.16	2818.67
2917.48	3464.51
2905.77	4146.55
2894.04	4602.04
2882.27	4245.76
2870.47	3658.37
2858.65	3043.5
2846.79	2652.56
2834.91	2514.12
2822.99	2458.22
2811.05	2316.62
2799.07	2180
2787.06	2227.93
2775.03	2211.61
2762.96	2348.53
2750.86	2404.09
2738.73	2465.7
2726.57	2607.19
2714.38	2691.09
2702.16	2604.41
2689.91	2557.94
2677.62	2647.52
2665.31	2742.86
2652.96	2789.88
2640.58	2782.71
2628.17	3023.74
2615.72	3007.71
2603.25	3039.05
2590.74	3252.86
2578.2	3307.91
2565.62	3415.73
2553.02	3563.69
2540.38	3586.95
2527.71	3680.97
2515.01	3709.79
2502.27	3879.51
2489.5	3985.99
2476.69	4075.84
2463.86	4239.17
2450.99	4273.96
2438.08	4529.33
2425.14	4652.38
2412.17	4798.48
2399.16	4959.55
2386.12	5226.03
2373.05	5121.97
2359.94	5323.86
2346.79	5428.94
2333.61	5716.49
2320.4	5748
2307.15	5951.71
2293.86	6019.03
2280.54	6492.55
2267.19	6644.44
2253.8	6841.46
2240.37	7031.63
2226.91	7152.07
2213.41	7279.41
2199.88	7451.5
2186.3	7792.83
2172.7	7881.37
2159.05	8157.48
2145.37	8375.74
2131.66	8588.99
2117.9	8814.08
2104.11	9034.13
2090.28	9466.37
2076.41	9527.79
2062.51	9991.24
2048.57	10157.5
2034.59	10229.1
2020.57	10294.7
2006.51	10958.9
1992.42	11178.5
1978.29	11520.4
1964.12	12113.9
1949.91	12207.2
1935.66	12492.7
1921.37	12828.5
1907.04	13386.3
1892.67	13719.4
1878.27	14039.8
1863.82	14454.3
1849.33	14793.6
1834.81	15184
1820.24	15734.1
1805.63	15989.3
1790.99	16444.4
1776.3	16802.5
1761.57	17459.9
1746.8	18077
1731.99	18437.4
1717.14	18814.6
1702.24	19082.6
1687.31	19919.5
1672.33	20477.3
1657.31	20946.2
1642.25	21315.2
1627.14	21688.7
1612	22332.6
1596.81	22580.7
1581.57	23130.4
1566.3	23515.4
1550.98	23591.3
1535.62	24461.9
1520.21	24799
1504.76	24933
1489.27	26121.2
1473.73	28123.3
1458.15	28431.9
1442.52	27876.1
1426.85	29322.9
1411.13	30560.2
1395.37	31381.4
1379.56	36154.5
1363.71	33620.5
1347.81	32708.5
1331.87	34277.3
1315.88	32403.2
1299.84	32051.9
1283.76	32171.6
1267.63	32399.9
1251.45	31972.8
1235.23	31217.1
1218.96	30135.8
1202.64	30397.3
1186.27	30501.6
1169.86	31566.6
1153.4	35612.4
1136.89	35769.4
1120.33	44791.2
1103.72	42190.1
1087.07	42738.1
1070.36	35819.9
1053.61	35519.8
1036.8	33829.7
1019.95	32371.4
1003.05	32207.3
986.092	32059
969.088	32700.5
952.032	31145.2
934.927	31519.2
917.771	32472.5
900.562	34256.4
883.303	33079
865.991	32329.3
848.628	32514.8
831.213	32601.5
813.745	32962.1
796.225	33468
778.651	33878.4
761.025	34341.2
743.346	34356.5
725.612	35048.7
707.825	35020.5
689.983	35835
672.088	36038.8
654.138	36512.6
636.134	37373.6
618.073	38191.9
599.958	38440.8
581.788	38956
563.562	39474.6
545.279	39369
526.94	40356.5
508.545	41546.6
490.093	42600.9
471.584	41890
453.018	46109.3
434.394	48211.5
415.712	44092
396.972	43473.2
378.174	52365.1
359.316	46594.9
340.401	45970.9
321.426	44061
302.392	42705.9
283.298	40400.2
264.144	40037.8
244.93	40348.9
225.655	39517.8
206.319	38878.5
186.923	39178
167.465	39686.1
147.945	38512.8
128.363	39212.6
108.72	34227
100.845	22316.7

File: Microcellulose_baseline_corrected.txt
#Wave		#Intensity
3112.1	-74.3055
3104.24	-38.7455
3096.38	0.969546
3088.5	3.016361
3080.6	14.561
3072.7	73.2482
3064.78	18.9179
3056.84	34.5195
3048.89	12.1602
3040.93	-40.2548
3032.95	-2.250724
3024.96	-22.0219
3016.96	-31.1787
3008.94	-51.5691
3000.91	38.3082
2992.86	117.72
2984.8	211.707
2976.73	436.358
2968.64	631.306
2960.54	712.68
2952.42	867.376
2944.29	916.126
2936.15	1263.54
2927.99	1408.07
2919.82	1766.54
2911.63	2232.52
2903.43	2494.27
2895.21	2811.02
2886.98	2599.36
2878.73	2282.82
2870.47	1835.8
2862.2	1361.03
2853.91	1053.77
2845.61	811.311
2837.29	464.654
2828.95	339.977
2820.61	252.965
2812.24	248.43
2803.87	102.659
2795.47	111.853
2787.06	41.9991
2778.64	25.7197
2770.21	-63.1148
2761.75	-96.6469
2753.29	-9.485056
2744.8	138.245
2736.3	100.715
2727.79	184.961
2719.26	97.2299
2710.72	118.155
2702.16	64.3215
2693.59	63.9079
2685	-9.044100
2676.39	8.709622
2667.77	-23.1305
2659.14	35.081
2650.49	24.8648
2641.82	6.663480
2633.14	38.4224
2624.44	-90.9915
2615.72	5.010820
2606.99	-18.7274
2598.25	-25.9426
2589.49	9.902617
2580.71	18.9147
2571.92	-76.4744
2563.11	83.429
2554.28	10.386
2545.44	51.2958
2536.58	138.568
2527.71	38.9448
2518.82	-22.0831
2509.92	15.8272
2500.99	-9.055808
2492.05	118.804
2483.1	-53.0951
2474.13	86.0378
2465.14	166.482
2456.14	-92.9392
2447.12	94.8173
2438.08	56.9542
2429.03	15.1089
2419.96	-78.2569
2410.87	12.5654
2401.77	-1.749082
2392.65	64.6485
2383.51	168.049
2374.36	37.2278
2365.18	-128.549
2356	83.7158
2346.79	-52.606
2337.57	-11.245
2328.33	35.5618
2319.08	72.2322
2309.8	85.2087
2300.51	-70.5276
2291.2	135.095
2281.88	44.6023
2272.54	-69.0998
2263.18	14.8937
2253.8	174.68
2244.4	258.587
2234.99	77.9279
2225.56	64.8823
2216.11	7.268041
2206.65	87.5355
2197.17	-112.164
2187.66	68.0264
2178.14	146.217
2168.61	0.391152
2159.05	96.3683
2149.48	109.713
2139.89	55.7588
2130.28	20.8298
2120.65	105.549
2111.01	35.1641
2101.35	130.351
2091.66	187.714
2081.96	-29.8539
2072.25	8.050633
2062.51	253.746
2052.75	31.4958
2042.98	17.0062
2033.19	-37.0285
2023.38	-200.073
2013.55	65.9783
2003.7	353.407
1993.83	230.247
1983.95	235.13
1974.04	167.598
1964.12	326.868
1954.17	53.5024
1944.21	154.686
1934.23	127.541
1924.23	-30.8368
1914.21	-113.394
1904.17	164.082
1894.11	141.867
1884.03	57.0775
1873.94	177.168
1863.82	179.345
1853.68	165.378
1843.53	69.9672
1833.35	-9.249970
1823.16	38.8055
1812.94	180.048
1802.71	212.061
1792.45	130.307
1782.18	91.3051
1771.89	218.925
1761.57	271.804
1751.24	354.998
1740.88	438.917
1730.51	419.871
1720.11	411.07
1709.7	262.491
1699.26	295.595
1688.8	403.031
1678.33	476.494
1667.83	114.147
1657.31	554.35
1646.77	314.001
1636.21	592.386
1625.63	408.246
1615.03	193.594
1604.41	531.111
1593.76	472.129
1583.1	282.331
1572.41	252.187
1561.71	329.1
1550.98	-28.3375
1540.23	281.467
1529.46	131.792
1518.67	22.1087
1507.85	225.198
1497.02	258.502
1486.16	971.118
1475.28	2569.2
1464.38	2514.94
1453.46	1759.89
1442.52	1363.13
1431.55	1891.65
1420.57	2630.29
1409.56	3037.68
1398.53	3145.46
1387.47	5798.11
1376.4	8311.02
1365.3	5826.56
1354.18	4211.55
1343.03	4982.1
1331.87	5556.32
1320.68	3853.49
1309.47	3078.06
1298.23	2890.12
1286.98	3081.75
1275.7	2567.04
1264.4	2671.83
1253.07	2125.78
1241.72	1740.54
1230.35	1100.85
1218.96	89.7992
1207.54	1.875935
1196.1	121.082
1184.63	555.595
1173.15	1082.5
1161.63	2701.7
1150.1	6119.72
1138.54	5271.2
1126.96	10968.7
1115.35	13571.2
1103.72	11594.9
1092.07	17778.9
1080.39	7555.41
1068.69	5121.14
1056.96	5073.27
1045.21	3492.65
1033.44	2909.69
1021.64	1759.04
1009.81	1061.85
997.965	1921.84
986.092	1196.25
974.194	1125.36
962.271	1149.37
950.324	433.312
938.353	321.549
926.355	682.056
914.333	1833.92
902.285	2561.33
890.213	2699.36
878.115	1283.69
865.991	686.557
853.843	820.77
841.668	795.25
829.469	834.383
817.243	993.101
804.991	765.551
792.714	518.406
780.411	808.171
768.082	806.201
755.727	652.552
743.346	674.965
730.938	923.257
718.504	865.952
706.043	969.977
693.557	477.96
681.043	361.193
668.503	619.807
655.936	752.028
643.342	781.507
630.721	1127.72
618.073	1132.47
605.398	972.852
592.696	752.509
579.968	594.165
567.211	1043.68
554.427	404.203
541.615	207.656
528.776	573.044
515.91	2773.67
503.016	1138.75
490.093	2067.74
477.143	1286.45
464.164	2376.44
451.157	4539.57
438.123	6104.71
425.06	3689.63
411.969	1894.5
398.849	2177.87
385.7	5910.02
372.522	7832.18
359.316	4992.63
346.082	5921.1
332.818	3688.24
319.525	2703.39
306.203	2336.4
292.853	1023.06
279.472	22.8173
266.062	276.837
252.623	829.229
239.153	909.142
225.655	434.484
212.126	166.324
198.568	44.7358
184.979	864.239
171.361	1575.52
157.713	539.323
144.033	327.047
130.324	-159.413
118.549	210.102